{
  "resourceType": "bundle",
  "type": "transaction",
  "entry": [
    {
      "resource": {
        "resourceType": "Patient",
        "id": "0",
        "gender": "male"
      },
      "request": {
        "method": "PUT",
        "url": "Patient/0"
      }
    },
    {
      "resource": {
        "resourceType": "Patient",
        "id": "1",
        "gender": "female"
      },
      "request": {
        "method": "PUT",
        "url": "Patient/1"
      }
    },
    {
      "resource": {
        "category": [
          {
            "coding": [
              {
                "code": "vital-signs",
                "system": "http://terminology.hl7.org/CodeSystem/observation-category"
              }
            ]
          }
        ],
        "code": {
          "coding": [
            {
              "code": "39156-5",
              "system": "http://loinc.org"
            }
          ]
        },
        "id": "0",
        "meta": {
          "profile": [
            "https://fhir.bbmri.de/StructureDefinition/Bmi"
          ]
        },
        "resourceType": "Observation",
        "status": "final",
        "subject": {
          "reference": "Patient/0"
        },
        "valueQuantity": {
          "code": "kg/m2",
          "system": "http://unitsofmeasure.org",
          "unit": "kg/m2",
          "value": 36.6
        }
      },
      "request": {
        "method": "PUT",
        "url": "Observation/0"
      }
    },
    {
      "resource": {
        "category": [
          {
            "coding": [
              {
                "code": "vital-signs",
                "system": "http://terminology.hl7.org/CodeSystem/observation-category"
              }
            ]
          }
        ],
        "code": {
          "coding": [
            {
              "code": "39156-5",
              "system": "http://loinc.org"
            }
          ]
        },
        "id": "1",
        "meta": {
          "profile": [
            "https://fhir.bbmri.de/StructureDefinition/Bmi"
          ]
        },
        "resourceType": "Observation",
        "status": "final",
        "subject": {
          "reference": "Patient/1"
        },
        "valueQuantity": {
          "code": "kg/m2",
          "system": "http://unitsofmeasure.org",
          "unit": "kg/m2",
          "value": 26.6
        }
      },
      "request": {
        "method": "PUT",
        "url": "Observation/1"
      }
    },
    {
      "resource": {
        "id": "0",
        "meta": {
          "profile": [
            "https://fhir.bbmri.de/StructureDefinition/Specimen"
          ]
        },
        "resourceType": "Specimen",
        "subject": {
          "reference": "Patient/0"
        },
        "type": {
          "coding": [
            {
              "code": "whole-blood",
              "system": "https://fhir.bbmri.de/CodeSystem/SampleMaterialType"
            }
          ]
        }
      },
      "request": {
        "method": "PUT",
        "url": "Specimen/0"
      }
    },
    {
      "resource": {
        "id": "1",
        "meta": {
          "profile": [
            "https://fhir.bbmri.de/StructureDefinition/Specimen"
          ]
        },
        "resourceType": "Specimen",
        "subject": {
          "reference": "Patient/1"
        },
        "type": {
          "coding": [
            {
              "code": "whole-blood",
              "system": "https://fhir.bbmri.de/CodeSystem/SampleMaterialType"
            }
          ]
        }
      },
      "request": {
        "method": "PUT",
        "url": "Specimen/1"
      }
    },
    {
      "resource": {
        "resourceType": "Measure",
        "id": "0",
        "url": "0",
        "status": "active",
        "subjectCodeableConcept": {
          "coding": [
            {
              "system": "http://hl7.org/fhir/resource-types",
              "code": "Specimen"
            }
          ]
        },
        "library": [
          "0"
        ],
        "scoring": {
          "coding": [
            {
              "system": "http://terminology.hl7.org/CodeSystem/measure-scoring",
              "code": "cohort"
            }
          ]
        },
        "group": [
          {
            "population": [
              {
                "code": {
                  "coding": [
                    {
                      "system": "http://terminology.hl7.org/CodeSystem/measure-population",
                      "code": "initial-population"
                    }
                  ]
                },
                "criteria": {
                  "language": "text/cql",
                  "expression": "InInitialPopulation"
                }
              }
            ]
          }
        ]
      },
      "request": {
        "method": "PUT",
        "url": "Measure/0"
      }
    }
  ]
}
